LUNA Datafile
Version = 2.0
Scan = Spectrometer 

[Scan info]
Users: sbn, ttl,ck, jl
Ion name: ox170
Ion mass: 0.0 amu
Ion charge: 1

Laser used: Laser 1
Excitation wavelength: 561.0 nm
Laser filter OD: 1.5
Laser power: 0.20 mW

Flourescence filter type: Longpass filter
Filter wavelength: 561.0

[Consys]
No Consys info found
[Consys]

[Timing]
No Timing info found
[Timing]

[Data file info]


Time elapsed (min): 15.35
Pictures taken: 7700
[Data file info]
[Scan info]

[Notes]
-176oC
[Notes]

[Detectors]
Wavelength	Bg	Sig	Ref

[AndorNewton]
5.50000E+2	3.99372E+6	3.99423E+6	-5.11000E+2
5.50494E+2	3.96516E+6	3.96391E+6	1.25100E+3
5.50988E+2	3.95595E+6	3.95546E+6	4.89000E+2
5.51482E+2	3.95037E+6	3.94981E+6	5.56000E+2
5.51976E+2	3.96185E+6	3.96169E+6	1.64000E+2
5.52470E+2	3.95471E+6	3.95422E+6	4.89000E+2
5.52963E+2	3.95090E+6	3.95059E+6	3.06000E+2
5.53457E+2	3.94713E+6	3.95038E+6	-3.24800E+3
5.53951E+2	3.94597E+6	3.94697E+6	-9.93000E+2
5.54445E+2	3.94723E+6	3.94639E+6	8.43000E+2
5.54939E+2	3.94285E+6	3.94282E+6	3.10000E+1
5.55433E+2	3.94263E+6	3.94271E+6	-8.10000E+1
5.55926E+2	3.94055E+6	3.94073E+6	-1.73000E+2
5.56420E+2	3.94079E+6	3.94050E+6	2.90000E+2
5.56914E+2	3.94354E+6	3.94370E+6	-1.63000E+2
5.57407E+2	3.94658E+6	3.94667E+6	-9.00000E+1
5.57901E+2	3.94767E+6	3.94696E+6	7.11000E+2
5.58394E+2	3.94615E+6	3.94601E+6	1.36000E+2
5.58888E+2	3.94293E+6	3.94288E+6	4.90000E+1
5.59381E+2	3.94323E+6	3.94307E+6	1.63000E+2
5.59875E+2	3.93891E+6	3.94291E+6	-4.00300E+3
5.60368E+2	3.93824E+6	3.93984E+6	-1.59800E+3
5.60862E+2	3.93471E+6	3.93750E+6	-2.79500E+3
5.61355E+2	3.93419E+6	3.93345E+6	7.37000E+2
5.61849E+2	3.93322E+6	3.93386E+6	-6.37000E+2
5.62342E+2	3.93054E+6	3.93034E+6	2.06000E+2
5.62835E+2	3.93085E+6	3.93112E+6	-2.68000E+2
5.63329E+2	3.92945E+6	3.92889E+6	5.59000E+2
5.63822E+2	3.92941E+6	3.92966E+6	-2.51000E+2
5.64315E+2	3.92958E+6	3.93057E+6	-9.87000E+2
5.64809E+2	3.92949E+6	3.92919E+6	2.99000E+2
5.65302E+2	3.93133E+6	3.93097E+6	3.60000E+2
5.65795E+2	3.93063E+6	3.93015E+6	4.84000E+2
5.66288E+2	3.93149E+6	3.93196E+6	-4.70000E+2
5.66781E+2	3.93158E+6	3.93176E+6	-1.82000E+2
5.67274E+2	3.93117E+6	3.93160E+6	-4.27000E+2
5.67767E+2	3.93362E+6	3.93300E+6	6.17000E+2
5.68260E+2	3.93230E+6	3.93255E+6	-2.43000E+2
5.68753E+2	3.93370E+6	3.93350E+6	1.94000E+2
5.69246E+2	3.93492E+6	3.93502E+6	-1.09000E+2
5.69739E+2	3.93301E+6	3.93327E+6	-2.65000E+2
5.70232E+2	3.93517E+6	3.93429E+6	8.76000E+2
5.70725E+2	3.93182E+6	3.93280E+6	-9.77000E+2
5.71218E+2	3.93307E+6	3.93297E+6	1.03000E+2
5.71711E+2	3.93236E+6	3.93194E+6	4.17000E+2
5.72203E+2	3.93177E+6	3.93122E+6	5.49000E+2
5.72696E+2	3.93297E+6	3.93232E+6	6.55000E+2
5.73189E+2	3.93045E+6	3.92945E+6	9.96000E+2
5.73682E+2	3.93088E+6	3.93099E+6	-1.18000E+2
5.74174E+2	3.93046E+6	3.92989E+6	5.70000E+2
5.74667E+2	3.92841E+6	3.92888E+6	-4.74000E+2
5.75160E+2	3.92942E+6	3.92954E+6	-1.26000E+2
5.75652E+2	3.93162E+6	3.92997E+6	1.65700E+3
5.76145E+2	3.93016E+6	3.92984E+6	3.27000E+2
5.76637E+2	3.92989E+6	3.92914E+6	7.47000E+2
5.77130E+2	3.93057E+6	3.92977E+6	7.93000E+2
5.77622E+2	3.93091E+6	3.93056E+6	3.46000E+2
5.78115E+2	3.93399E+6	3.93236E+6	1.63500E+3
5.78607E+2	3.93320E+6	3.93027E+6	2.92600E+3
5.79099E+2	3.93257E+6	3.92908E+6	3.49900E+3
5.79592E+2	4.03645E+6	4.03377E+6	2.68400E+3
5.80084E+2	3.93639E+6	3.93134E+6	5.05400E+3
5.80576E+2	3.93776E+6	3.92951E+6	8.24700E+3
5.81068E+2	3.93926E+6	3.93036E+6	8.89500E+3
5.81560E+2	3.94108E+6	3.93241E+6	8.67300E+3
5.82053E+2	3.94668E+6	3.93028E+6	1.63990E+4
5.82545E+2	3.95589E+6	3.93256E+6	2.33280E+4
5.83037E+2	3.96775E+6	3.92888E+6	3.88730E+4
5.83529E+2	3.97674E+6	3.92950E+6	4.72330E+4
5.84021E+2	3.98233E+6	3.92769E+6	5.46410E+4
5.84513E+2	3.98072E+6	3.92798E+6	5.27460E+4
5.85005E+2	3.97125E+6	3.92599E+6	4.52600E+4
5.85497E+2	3.97544E+6	3.92722E+6	4.82190E+4
5.85989E+2	3.96236E+6	3.92693E+6	3.54310E+4
5.86480E+2	3.95130E+6	3.92631E+6	2.49830E+4
5.86972E+2	3.94494E+6	3.92625E+6	1.86870E+4
5.87464E+2	3.94068E+6	3.92531E+6	1.53770E+4
5.87956E+2	3.93544E+6	3.92357E+6	1.18700E+4
5.88447E+2	3.93796E+6	3.92474E+6	1.32140E+4
5.88939E+2	3.93704E+6	3.92414E+6	1.28980E+4
5.89431E+2	3.93278E+6	3.92294E+6	9.83800E+3
5.89922E+2	3.92929E+6	3.92301E+6	6.27800E+3
5.90414E+2	3.92684E+6	3.92213E+6	4.70200E+3
5.90905E+2	3.92915E+6	3.92275E+6	6.40100E+3
5.91397E+2	3.92790E+6	3.92184E+6	6.05800E+3
5.91888E+2	3.92789E+6	3.92195E+6	5.94200E+3
5.92380E+2	3.92683E+6	3.91939E+6	7.43900E+3
5.92871E+2	3.92550E+6	3.91754E+6	7.96200E+3
5.93362E+2	3.92459E+6	3.91734E+6	7.25300E+3
5.93854E+2	3.92521E+6	3.91765E+6	7.55900E+3
5.94345E+2	3.92344E+6	3.91793E+6	5.51000E+3
5.94836E+2	3.92362E+6	3.91723E+6	6.39500E+3
5.95327E+2	3.92628E+6	3.91700E+6	9.28000E+3
5.95818E+2	3.92622E+6	3.91898E+6	7.24300E+3
5.96310E+2	3.92838E+6	3.92137E+6	7.01300E+3
5.96801E+2	3.93045E+6	3.92279E+6	7.65900E+3
5.97292E+2	3.92801E+6	3.92300E+6	5.00200E+3
5.97783E+2	3.92794E+6	3.92323E+6	4.71000E+3
5.98274E+2	3.92721E+6	3.92429E+6	2.91600E+3
5.98764E+2	3.92820E+6	3.92410E+6	4.09500E+3
5.99255E+2	3.93005E+6	3.92549E+6	4.55500E+3
5.99746E+2	3.93069E+6	3.92331E+6	7.38100E+3
6.00237E+2	3.92880E+6	3.92445E+6	4.35900E+3
6.00728E+2	3.93095E+6	3.92564E+6	5.31500E+3
6.01218E+2	3.93413E+6	3.92774E+6	6.39800E+3
6.01709E+2	3.93504E+6	3.92673E+6	8.31100E+3
6.02200E+2	3.93689E+6	3.92694E+6	9.94900E+3
6.02690E+2	3.94125E+6	3.92734E+6	1.39130E+4
6.03181E+2	3.93638E+6	3.92623E+6	1.01510E+4
6.03671E+2	3.94316E+6	3.92827E+6	1.48910E+4
6.04162E+2	3.94761E+6	3.92809E+6	1.95190E+4
6.04652E+2	3.94872E+6	3.92759E+6	2.11230E+4
6.05143E+2	3.94573E+6	3.92817E+6	1.75640E+4
6.05633E+2	3.94801E+6	3.92844E+6	1.95670E+4
6.06123E+2	3.94439E+6	3.92831E+6	1.60780E+4
6.06614E+2	3.94080E+6	3.92793E+6	1.28690E+4
6.07104E+2	3.94326E+6	3.92665E+6	1.66050E+4
6.07594E+2	3.94274E+6	3.92802E+6	1.47190E+4
6.08084E+2	3.93780E+6	3.92712E+6	1.06740E+4
6.08574E+2	3.94024E+6	3.92883E+6	1.14040E+4
6.09064E+2	3.93943E+6	3.92851E+6	1.09140E+4
6.09554E+2	3.93584E+6	3.92758E+6	8.25900E+3
6.10044E+2	3.93619E+6	3.92750E+6	8.68800E+3
6.10534E+2	3.93505E+6	3.92622E+6	8.83000E+3
6.11024E+2	3.93453E+6	3.92600E+6	8.52500E+3
6.11514E+2	3.93547E+6	3.92686E+6	8.61000E+3
6.12004E+2	3.93439E+6	3.92774E+6	6.64900E+3
6.12493E+2	3.93253E+6	3.92704E+6	5.48700E+3
6.12983E+2	3.93070E+6	3.92589E+6	4.81100E+3
6.13473E+2	3.93058E+6	3.92714E+6	3.43400E+3
6.13962E+2	3.93035E+6	3.92660E+6	3.74200E+3
6.14452E+2	3.92993E+6	3.92622E+6	3.71700E+3
6.14942E+2	3.93163E+6	3.92660E+6	5.02500E+3
6.15431E+2	3.93094E+6	3.92742E+6	3.51800E+3
6.15920E+2	3.93361E+6	3.92994E+6	3.67000E+3
6.16410E+2	3.93081E+6	3.93064E+6	1.75000E+2
6.16899E+2	3.92769E+6	3.92813E+6	-4.36000E+2
6.17388E+2	3.93227E+6	3.92671E+6	5.55600E+3
6.17878E+2	3.92820E+6	3.92473E+6	3.47100E+3
6.18367E+2	3.92918E+6	3.92574E+6	3.44100E+3
6.18856E+2	3.92715E+6	3.92582E+6	1.33200E+3
6.19345E+2	3.92634E+6	3.92678E+6	-4.35000E+2
6.19834E+2	3.92736E+6	3.92548E+6	1.87800E+3
6.20323E+2	3.92743E+6	3.92416E+6	3.27100E+3
6.20812E+2	3.92759E+6	3.92474E+6	2.85400E+3
6.21301E+2	3.92769E+6	3.92435E+6	3.34900E+3
6.21790E+2	3.92815E+6	3.92623E+6	1.91400E+3
6.22279E+2	3.93002E+6	3.92879E+6	1.22600E+3
6.22768E+2	3.92677E+6	3.92486E+6	1.91800E+3
6.23257E+2	3.92716E+6	3.92503E+6	2.13500E+3
6.23745E+2	3.92818E+6	3.92715E+6	1.02500E+3
6.24234E+2	3.92664E+6	3.92321E+6	3.42900E+3
6.24723E+2	3.92718E+6	3.92424E+6	2.94700E+3
6.25211E+2	3.93071E+6	3.92554E+6	5.17000E+3
6.25700E+2	3.92779E+6	3.92361E+6	4.18500E+3
6.26188E+2	3.92801E+6	3.92277E+6	5.24100E+3
6.26677E+2	3.92641E+6	3.92303E+6	3.37500E+3
6.27165E+2	3.92796E+6	3.92287E+6	5.08300E+3
6.27653E+2	3.93040E+6	3.92220E+6	8.20000E+3
6.28142E+2	3.92937E+6	3.92242E+6	6.95600E+3
6.28630E+2	3.92517E+6	3.92167E+6	3.49400E+3
6.29118E+2	3.92586E+6	3.92212E+6	3.73900E+3
6.29606E+2	3.92968E+6	3.92307E+6	6.61000E+3
6.30094E+2	3.92502E+6	3.92243E+6	2.59200E+3
6.30582E+2	3.92339E+6	3.92203E+6	1.36300E+3
6.31070E+2	3.92580E+6	3.92242E+6	3.38500E+3
6.31558E+2	3.92427E+6	3.92142E+6	2.85300E+3
6.32046E+2	3.92484E+6	3.92225E+6	2.59200E+3
6.32534E+2	3.92452E+6	3.92173E+6	2.79500E+3
6.33022E+2	3.92414E+6	3.92160E+6	2.54200E+3
6.33510E+2	3.92225E+6	3.92002E+6	2.22600E+3
6.33997E+2	3.92437E+6	3.92158E+6	2.79700E+3
6.34485E+2	3.92453E+6	3.92107E+6	3.45700E+3
6.34973E+2	3.92380E+6	3.92114E+6	2.65600E+3
6.35460E+2	3.92605E+6	3.92265E+6	3.39900E+3
6.35948E+2	3.91965E+6	3.91519E+6	4.46000E+3
6.36435E+2	3.92503E+6	3.92074E+6	4.29400E+3
6.36922E+2	3.92393E+6	3.92107E+6	2.85900E+3
6.37410E+2	3.92308E+6	3.92056E+6	2.51600E+3
6.37897E+2	3.92557E+6	3.92322E+6	2.35100E+3
6.38384E+2	3.92404E+6	3.92140E+6	2.63900E+3
6.38872E+2	3.92228E+6	3.91863E+6	3.64900E+3
6.39359E+2	3.92365E+6	3.92018E+6	3.46400E+3
6.39846E+2	3.92360E+6	3.92089E+6	2.70500E+3
6.40333E+2	3.92555E+6	3.92272E+6	2.82800E+3
6.40820E+2	3.92394E+6	3.92080E+6	3.14500E+3
6.41307E+2	3.92419E+6	3.92226E+6	1.92900E+3
6.41794E+2	3.92345E+6	3.92146E+6	1.99200E+3
6.42280E+2	3.92827E+6	3.92596E+6	2.31100E+3
6.42767E+2	3.92708E+6	3.92305E+6	4.03400E+3
6.43254E+2	3.92481E+6	3.92301E+6	1.79800E+3
6.43741E+2	3.92660E+6	3.92405E+6	2.55300E+3
6.44227E+2	3.92561E+6	3.92286E+6	2.74600E+3
6.44714E+2	3.92547E+6	3.92398E+6	1.48300E+3
6.45200E+2	3.92515E+6	3.92454E+6	6.12000E+2
6.45687E+2	3.92375E+6	3.92282E+6	9.31000E+2
6.46173E+2	3.92787E+6	3.92508E+6	2.79100E+3
6.46659E+2	3.92549E+6	3.92302E+6	2.47200E+3
6.47146E+2	3.92467E+6	3.92260E+6	2.06600E+3
6.47632E+2	3.92627E+6	3.92456E+6	1.71000E+3
6.48118E+2	3.92395E+6	3.92299E+6	9.53000E+2
6.48604E+2	3.92612E+6	3.92403E+6	2.09100E+3
6.49090E+2	3.92502E+6	3.92282E+6	2.20100E+3
6.49576E+2	3.92548E+6	3.92516E+6	3.20000E+2
6.50062E+2	3.92653E+6	3.92416E+6	2.37000E+3
6.50548E+2	3.92750E+6	3.92459E+6	2.91100E+3
6.51034E+2	3.92613E+6	3.92530E+6	8.38000E+2
6.51520E+2	3.92303E+6	3.92220E+6	8.36000E+2
6.52005E+2	3.92677E+6	3.92643E+6	3.40000E+2
6.52491E+2	3.92807E+6	3.92867E+6	-6.02000E+2
6.52977E+2	3.92552E+6	3.92461E+6	9.04000E+2
6.53462E+2	3.92515E+6	3.92443E+6	7.23000E+2
6.53948E+2	3.92256E+6	3.92108E+6	1.47500E+3
6.54433E+2	3.92599E+6	3.92386E+6	2.12800E+3
6.54919E+2	3.92536E+6	3.92448E+6	8.72000E+2
6.55404E+2	3.92733E+6	3.92558E+6	1.74800E+3
6.55889E+2	3.92705E+6	3.92587E+6	1.17600E+3
6.56375E+2	3.92285E+6	3.92332E+6	-4.65000E+2
6.56860E+2	3.92373E+6	3.92395E+6	-2.14000E+2
6.57345E+2	3.92463E+6	3.92496E+6	-3.33000E+2
6.57830E+2	3.92436E+6	3.92415E+6	2.19000E+2
6.58315E+2	3.92622E+6	3.92571E+6	5.06000E+2
6.58800E+2	3.92443E+6	3.92436E+6	7.70000E+1
6.59285E+2	3.92484E+6	3.92568E+6	-8.35000E+2
6.59770E+2	3.92580E+6	3.92557E+6	2.32000E+2
6.60254E+2	3.92397E+6	3.92641E+6	-2.44400E+3
6.60739E+2	3.92513E+6	3.92623E+6	-1.10300E+3
6.61224E+2	3.92473E+6	3.92483E+6	-1.06000E+2
6.61708E+2	3.92542E+6	3.92624E+6	-8.21000E+2
6.62193E+2	3.92578E+6	3.92505E+6	7.29000E+2
6.62677E+2	3.92834E+6	3.92799E+6	3.57000E+2
6.63162E+2	3.92675E+6	3.92707E+6	-3.23000E+2
6.63646E+2	3.92653E+6	3.92707E+6	-5.42000E+2
6.64130E+2	3.92816E+6	3.92780E+6	3.61000E+2
6.64615E+2	3.92629E+6	3.92737E+6	-1.07900E+3
6.65099E+2	3.93042E+6	3.93013E+6	2.87000E+2
6.65583E+2	3.92970E+6	3.92947E+6	2.30000E+2
6.66067E+2	3.93019E+6	3.92967E+6	5.21000E+2
6.66551E+2	3.93097E+6	3.93134E+6	-3.74000E+2
6.67035E+2	3.92984E+6	3.92983E+6	4.00000E+0
6.67519E+2	3.93219E+6	3.93279E+6	-6.02000E+2
6.68002E+2	3.93234E+6	3.93235E+6	-1.40000E+1
6.68486E+2	3.93289E+6	3.93194E+6	9.51000E+2
6.68970E+2	3.93226E+6	3.93273E+6	-4.68000E+2
6.69453E+2	3.93263E+6	3.93368E+6	-1.05000E+3
6.69937E+2	3.93317E+6	3.93375E+6	-5.79000E+2
6.70420E+2	3.93418E+6	3.93394E+6	2.43000E+2
6.70904E+2	3.93549E+6	3.93467E+6	8.11000E+2
6.71387E+2	3.93561E+6	3.93526E+6	3.47000E+2
6.71871E+2	3.93617E+6	3.93583E+6	3.42000E+2
6.72354E+2	3.93684E+6	3.93598E+6	8.64000E+2
6.72837E+2	3.93548E+6	3.93566E+6	-1.81000E+2
6.73320E+2	3.93508E+6	3.93550E+6	-4.25000E+2
6.73803E+2	3.93577E+6	3.93566E+6	1.17000E+2
6.74286E+2	3.93571E+6	3.93608E+6	-3.70000E+2
6.74769E+2	3.93639E+6	3.93661E+6	-2.26000E+2
[AndorNewton]
[Detectors]